Folder: yappari-5-1/files

Note: files/_definition_t58a.txt
[header]=Freq /Hz, Zr , Zi ; Name: 
[label_length]=8
#label
#data_columns=1,2,3

Note: files/example_custom_5_columns_datafile.txt
dev3221_imps_34, freq /Hz, Zr , Zi, Zr calc, Zi calc
5.000000E+6;2.308040E+3;-4.358320E+3;2.656137E+3;-6.062695E+3
4.304039E+6;2.506840E+3;-5.120760E+3;3.017911E+3;-6.767093E+3
3.704951E+6;2.749520E+3;-5.969060E+3;3.432446E+3;-7.547331E+3
3.189251E+6;3.044990E+3;-6.912400E+3;3.907999E+3;-8.409863E+3
2.745333E+6;3.407210E+3;-7.962700E+3;4.454142E+3;-9.361169E+3
2.363204E+6;3.852940E+3;-9.132460E+3;5.081939E+3;-1.040757E+4
2.034265E+6;4.403530E+3;-1.042400E+4;5.804125E+3;-1.155495E+4
1.751111E+6;5.071070E+3;-1.184460E+4;6.635276E+3;-1.280845E+4
1.507370E+6;5.882830E+3;-1.340590E+4;7.591948E+3;-1.417195E+4
1.297556E+6;6.864390E+3;-1.510140E+4;8.692757E+3;-1.564761E+4
1.116947E+6;8.045180E+3;-1.693770E+4;9.958371E+3;-1.723511E+4
9.614765E+5;9.277230E+3;-1.850800E+4;1.141135E+4;-1.893088E+4
8.276465E+5;1.095630E+4;-2.067170E+4;1.307580E+4;-2.072722E+4
7.124447E+5;1.293450E+4;-2.291570E+4;1.497670E+4;-2.261128E+4
6.132780E+5;1.523900E+4;-2.520890E+4;1.713899E+4;-2.456412E+4
5.279145E+5;1.789480E+4;-2.751400E+4;1.958613E+4;-2.655988E+4
4.544330E+5;2.092140E+4;-2.978090E+4;2.233832E+4;-2.856515E+4
3.911795E+5;2.432400E+4;-3.195590E+4;2.541029E+4;-3.053893E+4
3.367304E+5;2.809570E+4;-3.397020E+4;2.880882E+4;-3.243317E+4
2.898602E+5;3.221350E+4;-3.576030E+4;3.253018E+4;-3.419426E+4
2.495140E+5;3.663650E+4;-3.726280E+4;3.655791E+4;-3.576547E+4
2.147836E+5;4.131100E+4;-3.842090E+4;4.086125E+4;-3.709040E+4
1.848874E+5;4.616600E+4;-3.919440E+4;4.539478E+4;-3.811708E+4
1.591525E+5;5.111550E+4;-3.955040E+4;5.009949E+4;-3.880240E+4
1.369998E+5;5.607690E+4;-3.948660E+4;5.490547E+4;-3.911619E+4
1.179305E+5;6.096950E+4;-3.901120E+4;5.973607E+4;-3.904428E+4
1.015155E+5;6.570430E+4;-3.815630E+4;6.451297E+4;-3.858996E+4
8.738533E+4;7.021750E+4;-3.696320E+4;6.916148E+4;-3.777366E+4
7.522198E+4;7.446070E+4;-3.549240E+4;7.361536E+4;-3.663084E+4
6.475168E+4;7.839600E+4;-3.380060E+4;7.782043E+4;-3.520842E+4
5.573875E+4;8.200340E+4;-3.195250E+4;8.173672E+4;-3.356055E+4
4.798036E+4;8.527180E+4;-3.000320E+4;8.533893E+4;-3.174424E+4
4.130187E+4;8.821530E+4;-2.800850E+4;8.861558E+4;-2.981540E+4
3.555298E+4;9.083710E+4;-2.600810E+4;9.156717E+4;-2.782581E+4
3.060428E+4;9.317120E+4;-2.404650E+4;9.420376E+4;-2.582104E+4
2.634441E+4;9.523030E+4;-2.214500E+4;9.654239E+4;-2.383928E+4
2.267748E+4;9.704750E+4;-2.032830E+4;9.860474E+4;-2.191109E+4
1.952095E+4;9.863830E+4;-1.860920E+4;1.004150E+5;-2.005970E+4
1.680379E+4;1.000460E+5;-1.699800E+4;1.019983E+5;-1.830167E+4
1.446483E+4;1.012810E+5;-1.550120E+4;1.033794E+5;-1.664784E+4
1.245144E+4;1.023720E+5;-1.411170E+4;1.045818E+5;-1.510428E+4
1.071830E+4;1.033290E+5;-1.283620E+4;1.056276E+5;-1.367328E+4
9.226397E+3;1.041730E+5;-1.166570E+4;1.065365E+5;-1.235417E+4
7.942156E+3;1.049200E+5;-1.059560E+4;1.073265E+5;-1.114412E+4
6.836670E+3;1.055850E+5;-9.621460E+3;1.080133E+5;-1.003874E+4
5.885060E+3;1.061690E+5;-8.739690E+3;1.086109E+5;-9.032633E+3
5.065906E+3;1.066970E+5;-7.935380E+3;1.091314E+5;-8.119756E+3
4.360772E+3;1.071670E+5;-7.208200

Note: README.md
# yappari-5-1-Win10
 win 10 exe

File: MFLI_Zview_txt_imps_0_sample_00000.txt
ZPLOT2 ASCII
  Saved Data, ZView:          3
  Experiment Type:            Sweep Frequency, Control Voltage
  Date:                       01-01-1970
  Time:                       01:28:03
  Open Circuit Potential (V): 0
  Begin User Comments:        0
  End User Comments:          0
  Begin Information:          Cell Information
    Surface Area:             1
    Density:                  0
    Weight:                   0
    Polarity:                 0
    PolarityI:                0
    Corrosion Unit Type:      0
    Reference Type:           0
    Reference Potential:      0
    User-Defined Potential:   0
    Stern-Geary:              26
  End Information:            Cell Information
  Null Configuration:         0,2,0,1,0.001,1000000
  Data Points:                120
  Freq(Hz)	Ampl	Bias	Time(Sec)	Z'(a)	Z''(b)	Aux	Err	Range
End Comments
5e+06	1.000061e-01	0.000000e+00	0.000000e+00	2.623363e+03	-4.420820e+03	0.0000E+00	0	0
3.57083e+06	1.000061e-01	0.000000e+00	5.010133e-02	3.156690e+03	-6.293704e+03	0.0000E+00	0	0
2.55016e+06	1.000061e-01	0.000000e+00	1.005760e-01	3.992897e+03	-8.671755e+03	0.0000E+00	0	0
1.82124e+06	1.000061e-01	0.000000e+00	1.515733e-01	5.321135e+03	-1.165914e+04	0.0000E+00	0	0
1.30066e+06	1.000061e-01	0.000000e+00	2.001067e-01	7.375747e+03	-1.531282e+04	0.0000E+00	0	0
928890	1.000061e-01	0.000000e+00	2.732800e-01	1.048232e+04	-1.959903e+04	0.0000E+00	0	0
663381	1.000061e-01	0.000000e+00	9.000320e-01	1.483152e+04	-2.418360e+04	0.0000E+00	0	0
473764	1.000061e-01	0.000000e+00	9.724587e-01	2.102358e+04	-2.914191e+04	0.0000E+00	0	0
338346	1.000061e-01	0.000000e+00	1.031744e+00	2.906000e+04	-3.359633e+04	0.0000E+00	0	0
241635	1.000061e-01	0.000000e+00	1.082667e+00	3.866941e+04	-3.681454e+04	0.0000E+00	0	0
172567	1.000061e-01	0.000000e+00	1.135904e+00	4.925200e+04	-3.822178e+04	0.0000E+00	0	0
123242	1.000061e-01	0.000000e+00	1.204299e+00	5.991569e+04	-3.762114e+04	0.0000E+00	0	0
88014.8	1.000061e-01	0.000000e+00	1.258731e+00	6.980973e+04	-3.521865e+04	0.0000E+00	0	0
62857.2	1.000061e-01	0.000000e+00	1.338101e+00	7.832184e+04	-3.162043e+04	0.0000E+00	0	0
44890.4	1.000061e-01	0.000000e+00	1.408512e+00	8.523451e+04	-2.742687e+04	0.0000E+00	0	0
32059.2	1.000061e-01	0.000000e+00	1.476160e+00	9.065941e+04	-2.320607e+04	0.0000E+00	0	0
22895.6	1.000061e-01	0.000000e+00	1.538805e+00	9.478886e+04	-1.928517e+04	0.0000E+00	0	0
16351.2	1.000061e-01	0.000000e+00	1.608917e+00	9.792943e+04	-1.585018e+04	0.0000E+00	0	0
11677.5	1.000061e-01	0.000000e+00	1.658795e+00	1.003098e+05	-1.294163e+04	0.0000E+00	0	0
8339.65	1.000061e-01	0.000000e+00	2.228203e+00	1.021616e+05	-1.046628e+04	0.0000E+00	0	0
5955.89	1.000061e-01	0.000000e+00	2.290848e+00	1.036017e+05	-8.551369e+03	0.0000E+00	0	0
4253.49	1.000061e-01	0.000000e+00	2.361931e+00	1.047305e+05	-6.978267e+03	0.0000E+00	0	0
3037.69	1.000061e-01	0.000000e+00	2.527467e+00	1.056506e+05	-5.727822e+03	0.0000E+00	0	0
2169.42	1.000061e-01	0.000000e+00	2.791488e+00	1.064012e+05	-4.729752e+03	0.0000E+00	0	0
1549.32	1.000061e-01	0.000000e+00	3.044235e+00	1.069975e+05	-3.939527e+03	0.0000E+00	0	0
1106.47	1.000061e-01	0.000000e+00	3.315648e+00	1.075567e+05	-3.319151e+03	0.0000E+00	0	0
790.204	1.000061e-01	0.000000e+00	3.572700e+00	1.080108e+05	-2.833862e+03	0.0000E+00	0	0
564.337	1.000061e-01	0.000000e+00	3.838513e+00	1.083964e+05	-2.477550e+03	0.0000E+00	0	0
403.03	1.000061e-01	0.000000e+00	4.117816e+00	1.087381e+05	-2.220854e+03	0.0000E+00	0	0
287.83	1.000061e-01	0.000000e+00	4.422506e+00	1.090586e+05	-2.037510e+03	0.0000E+00	0	0
205.558	1.000061e-01	0.000000e+00	4.732008e+00	1.093563e+05	-1.931481e+03	0.0000E+00	0	0
146.803	1.000061e-01	0.000000e+00	5.069335e+00	1.097496e+05	-1.922650e+03	0.0000E+00	0	0
104.841	1.000061e-01	0.000000e+00	5.458855e+00	1.099270e+05	-1.962671e+03	0.0000E+00	0	0
74.874	1.000061e-01	0.000000e+00	5.894007e+00	1.102122e+05	-2.103355e+03	0.0000E+00	0	0
53.4724	1.000061e-01	0.000000e+00	6.426595e+00	1.102126e+05	-2.559997e+03	0.0000E+00	0	0
38.1882	1.000061e-01	0.000000e+00	7.102192e+00	1.108700e+05	-2.659857e+03	0.0000E+00	0	0
27.2727	1.000061e-01	0.000000e+00	8.032989e+00	1.112434e+05	-3.132330e+03	0.0000E+00	0	0
19.4772	1.000061e-01	0.000000e+00	9.254813e+00	1.116668e+05	-3.763552e+03	0.0000E+00	0	0
13.9099	1.000061e-01	0.000000e+00	1.104072e+01	1.121812e+05	-4.604651e+03	0.0000E+00	0	0
9.934	1.000061e-01	0.000000e+00	1.204427e+01	1.127781e+05	-5.708506e+03	0.0000E+00	0	0
7.09452	1.000061e-01	0.000000e+00	1.267931e+01	1.135084e+05	-7.180692e+03	0.0000E+00	0	0
5.06666	1.000061e-01	0.000000e+00	1.336385e+01	1.144301e+05	-9.033608e+03	0.0000E+00	0	0
3.61843	1.000061e-01	0.000000e+00	1.421998e+01	1.154802e+05	-1.147017e+04	0.0000E+00	0	0
2.58416	1.000061e-01	0.000000e+00	1.522096e+01	1.170886e+05	-1.481391e+04	0.0000E+00	0	0
1.84552	1.000061e-01	0.000000e+00	1.644169e+01	1.190967e+05	-1.855102e+04	0.0000E+00	0	0
1.318	1.000061e-01	0.000000e+00	1.793509e+01	1.216537e+05	-2.369412e+04	0.0000E+00	0	0
0.941274	1.000061e-01	0.000000e+00	1.989076e+01	1.244387e+05	-3.013633e+04	0.0000E+00	0	0
0.672225	1.000061e-01	0.000000e+00	2.255442e+01	1.288528e+05	-3.903798e+04	0.0000E+00	0	0
0.48008	1.000061e-01	0.000000e+00	2.615507e+01	1.334709e+05	-4.814246e+04	0.0000E+00	0	0
0.342856	1.000061e-01	0.000000e+00	3.105223e+01	1.413759e+05	-6.193849e+04	0.0000E+00	0	0
0.244856	1.000061e-01	0.000000e+00	3.773707e+01	1.485792e+05	-7.988386e+04	0.0000E+00	0	0
0.174868	1.000061e-01	0.000000e+00	4.701888e+01	1.571476e+05	-1.007447e+05	0.0000E+00	0	0
0.124885	1.000061e-01	0.000000e+00	5.986252e+01	1.695197e+05	-1.266747e+05	0.0000E+00	0	0
0.0891882	1.000061e-01	0.000000e+00	7.776908e+01	1.862336e+05	-1.606183e+05	0.0000E+00	0	0
0.0636952	1.000061e-01	0.000000e+00	1.026533e+02	2.076302e+05	-2.059545e+05	0.0000E+00	0	0
0.0454889	1.000061e-01	0.000000e+00	1.372697e+02	2.343001e+05	-2.659717e+05	0.0000E+00	0	0
0.0324867	1.000061e-01	0.000000e+00	1.862917e+02	2.688748e+05	-3.461675e+05	0.0000E+00	0	0
0.0232009	1.000061e-01	0.000000e+00	2.538096e+02	3.137759e+05	-4.483767e+05	0.0000E+00	0	0
0.0165691	1.000061e-01	0.000000e+00	3.482856e+02	3.727478e+05	-5.866324e+05	0.0000E+00	0	0
0.0118331	1.000061e-01	0.000000e+00	4.803980e+02	4.598886e+05	-7.535685e+05	0.0000E+00	0	0
0.00999989	1.000061e-01	0.000000e+00	5.650991e+02	5.133683e+05	-8.670968e+05	0.0000E+00	0	0